Folder: Materials_Data_Analytics/test_trajectories/cyclic_voltammetry

Note: README.md
# Analytics

This is empty. We should all write something here. Thank you.

File: biologic1.txt
Ewe/V	<I>/mA	cycle number	time/s
0.201241	8.88687e-05	1	0.281
0.221243	0.000109618	1	0.681
0.241243	0.000114597	1	1.081
0.261257	0.000117254	1	1.481
0.281243	0.000119418	1	1.881
0.301252	0.000121448	1	2.281
0.32126	0.000123832	1	2.681
0.34125	0.000126206	1	3.081
0.361264	0.00012911	1	3.481
0.381254	0.000132251	1	3.881
0.40126	0.00013615	1	4.281
0.421261	0.000140464	1	4.681
0.441262	0.000145978	1	5.081
0.461253	0.000153457	1	5.481
0.481266	0.000162856	1	5.881
0.499461	0.000175277	1	6.245
0.492712	-6.29619e-05	1	6.4116
0.472713	-9.34782e-05	1	6.8116
0.452704	-0.000104247	1	7.2116
0.432703	-0.000109463	1	7.6116
0.412706	-0.000112847	1	8.0116
0.392706	-0.000115254	1	8.4116
0.372712	-0.000117966	1	8.8116
0.352697	-0.000120527	1	9.2116
0.332708	-0.000122927	1	9.6116
0.312693	-0.000124872	1	10.0116
0.292684	-0.000126445	1	10.4116
0.272683	-0.00012757	1	10.8116
0.252692	-0.000128383	1	11.2116
0.23269	-0.00012863	1	11.6116
0.212698	-0.000128644	1	12.0116
0.192685	-0.000128409	1	12.4116
0.172686	-0.000128136	1	12.8116
0.152687	-0.000128477	1	13.2118
0.132704	-0.000128831	1	13.6118
0.112708	-0.000129586	1	14.0118
0.0927098	-0.000131032	1	14.4118
0.0727035	-0.000132744	1	14.8118
0.0526979	-0.000135341	1	15.2118
0.0326912	-0.000137366	1	15.6118
0.0127091	-0.000139717	1	16.0118
-0.00730667	-0.000141963	1	16.4118
-0.0273195	-0.000144396	1	16.8118
-0.047313	-0.000146504	1	17.2118
-0.0673229	-0.00014781	1	17.6118
-0.0873214	-0.000149025	1	18.0118
-0.107335	-0.000150093	1	18.4118
-0.127329	-0.000151714	1	18.8118
-0.147328	-0.000153392	1	19.2118
-0.167331	-0.000155529	1	19.6118
-0.187336	-0.000158165	1	20.0118
-0.207345	-0.000161311	1	20.4118
-0.227332	-0.00016461	1	20.8118
-0.24733	-0.000168852	1	21.2118
-0.26733	-0.000174059	1	21.6118
-0.287317	-0.000180877	1	22.0118
-0.30733	-0.000190364	1	22.4118
-0.32733	-0.000202135	1	22.812
-0.347339	-0.000217891	1	23.212
-0.367338	-0.000236995	1	23.612
-0.387339	-0.000259666	1	24.012
-0.407334	-0.000286198	1	24.412
-0.427343	-0.000314105	1	24.812
-0.447329	-0.000342279	1	25.212
-0.467341	-0.0003675	1	25.612
-0.487318	-0.000387686	1	26.012
-0.497186	-0.000153551	1	26.3124
-0.477194	-5.46577e-05	1	26.7124
-0.455663	-1.19473e-05	1	27.1424
-0.435706	1.70504e-05	1	27.5424
-0.415734	4.12794e-05	1	27.9424
-0.395726	6.1978e-05	1	28.3424
-0.375733	7.97877e-05	1	28.7424
-0.355728	9.51043e-05	1	29.1424
-0.335748	0.000107351	1	29.5424
-0.314188	0.000118032	1	29.9724
-0.29418	0.000126499	1	30.3726
-0.274185	0.000132966	1	30.7726
-0.254185	0.000137904	1	31.1726
-0.234185	0.000140982	1	31.5726
-0.21419	0.000143405	1	31.9726
-0.194189	0.000144937	1	32.3726
-0.17418	0.000146271	1	32.7726
-0.154194	0.000146913	1	33.1726
-0.134175	0.000147123	1	33.5726
-0.114189	0.000147416	1	33.9726
-0.0941724	0.000147656	1	34.3726
-0.0741857	0.000147714	1	34.7726
-0.0541792	0.000147629	1	35.1726
-0.0341754	0.000147503	1	35.5726
-0.0141884	0.000147204	1	35.9726
0.0058274	0.000147261	1	36.3726
0.0258203	0.00014706	1	36.7726
0.0458365	0.000146062	1	37.1726
0.0658485	0.00014378	1	37.5726
0.0858381	0.000140898	1	37.9726
0.105831	0.000138383	1	38.3726
0.125834	0.000135105	1	38.7726
0.145827	0.000133038	1	39.1726
0.161087	0.000131449	2	39.4776
0.178629	0.00013139	2	39.8288
0.19863	0.000130804	2	40.2288
0.218643	0.00013055	2	40.6288
0.238629	0.000130606	2	41.0288
0.258636	0.000131364	2	41.4288
0.278634	0.000132067	2	41.8288
0.298632	0.000133596	2	42.2288
0.318646	0.000135157	2	42.6288
0.338645	0.000136755	2	43.0288
0.358647	0.000138738	2	43.4288
0.378651	0.000140336	2	43.8288
0.39865	0.000142596	2	44.2288
0.418664	0.00014509	2	44.6288
0.438649	0.00014914	2	45.0288
0.458649	0.000154904	2	45.4288
0.478647	0.000163344	2	45.8288
0.498141	0.000175467	2	46.2188
0.492692	-6.19432e-05	2	46.4114
0.472691	-9.27383e-05	2	46.8114
0.4527	-0.000103665	2	47.2114
0.432686	-0.000109118	2	47.6114
0.41269	-0.000112938	2	48.0114
0.392687	-0.000115428	2	48.4114
0.372683	-0.000118169	2	48.8114
0.352681	-0.000120514	2	49.2114
0.332689	-0.000122949	2	49.6114
0.312696	-0.000125023	2	50.0114
0.292684	-0.000126815	2	50.4114
0.272688	-0.000128246	2	50.8114
0.252671	-0.000129143	2	51.2114
0.232676	-0.000129377	2	51.6114
0.212693	-0.000129332	2	52.0114
0.192678	-0.000129306	2	52.4114
0.172677	-0.000129002	2	52.8114
0.152684	-0.000129529	2	53.2116
0.132676	-0.000129736	2	53.6116
0.11268	-0.000130449	2	54.0116
0.0926779	-0.000131848	2	54.4116
0.0726818	-0.00013341	2	54.8116
0.0526796	-0.000136317	2	55.2116
0.0326777	-0.00013848	2	55.6116
0.0126843	-0.000140708	2	56.0116
-0.00733214	-0.000142984	2	56.4116
-0.0273359	-0.000145326	2	56.8116
-0.047322	-0.000147589	2	57.2116
-0.0673433	-0.00014866	2	57.6116
-0.0873405	-0.000149784	2	58.0116
-0.107351	-0.00015097	2	58.4116
-0.127342	-0.000152423	2	58.8116
-0.147326	-0.000153886	2	59.2116
-0.167336	-0.000156032	2	59.6116
-0.187333	-0.000158487	2	60.0116
-0.207334	-0.000161669	2	60.4116
-0.22734	-0.000165229	2	60.8116
-0.247328	-0.000169117	2	61.2116
-0.267328	-0.000174525	2	61.6116
-0.287329	-0.000181094	2	62.0116
-0.307336	-0.00019006	2	62.4116
-0.327337	-0.000201354	2	62.8118
-0.347335	-0.000216395	2	63.2118
-0.367328	-0.000234488	2	63.6118
-0.387335	-0.000255694	2	64.0118
-0.407338	-0.000280259	2	64.4118
-0.427345	-0.000306298	2	64.8118
-0.447333	-0.000332694	2	65.2118
-0.467334	-0.000356807	2	65.6118
-0.48732	-0.000376932	2	66.0118
-0.497189	-0.000144203	2	66.3122
-0.477195	-4.89979e-05	2	66.7122
-0.455671	-7.89001e-06	2	67.1422
-0.435697	2.01364e-05	2	67.5422
-0.415704	4.37705e-05	2	67.9422
-0.395723	6.36671e-05	2	68.3422
-0.375726	8.10288e-05	2	68.7422
-0.355737	9.60644e-05	2	69.1422
-0.335734	0.000107876	2	69.5422
-0.314175	0.000118668	2	69.9722
-0.294166	0.000126805	2	70.3724
-0.274171	0.000133129	2	70.7724
-0.254183	0.000138332	2	71.1724
-0.23417	0.000141158	2	71.5724
-0.21417	0.00014362	2	71.9724
-0.194169	0.000145055	2	72.3724
-0.174173	0.000146238	2	72.7724
-0.154179	0.000147184	2	73.1724
-0.134169	0.000147407	2	73.5724
-0.114182	0.000147526	2	73.9724
-0.0941823	0.00014791	2	74.3724
-0.0741897	0.000148117	2	74.7724
-0.0541919	0.000148068	2	75.1724
-0.0341857	0.00014797	2	75.5724
-0.0141938	0.000147741	2	75.9724
0.00583879	0.000147737	2	76.3724
0.0258316	0.000147667	2	76.7724
0.0458348	0.000146726	2	77.1724
0.0658314	0.000144447	2	77.5724
0.0858351	0.000141588	2	77.9724
0.105841	0.000138847	2	78.3724
0.125835	0.000135675	2	78.7724
0.145843	0.000133457	2	79.1724
0.161159	0.000132547	3	79.4774
0.178642	0.000131611	3	79.8286
0.198629	0.000131499	3	80.2286
0.218646	0.000130944	3	80.6286
0.238651	0.000131028	3	81.0286
0.258656	0.000131698	3	81.4286
0.27865	0.000132465	3	81.8286
0.298653	0.000133832	3	82.2286
0.318666	0.000135321	3	82.6286
0.338668	0.000136923	3	83.0286
0.358656	0.000138692	3	83.4286
0.378666	0.000140379	3	83.8286
0.398666	0.000142554	3	84.2286
0.418681	0.000145152	3	84.6286
0.438671	0.000148859	3	85.0286
0.458664	0.000154684	3	85.4286
0.478671	0.000163011	3	85.8286
0.498147	0.000174605	3	86.2186
0.492707	-6.25873e-05	3	86.4112
0.4727	-9.29878e-05	3	86.8112
0.452697	-0.000103751	3	87.2112
0.432696	-0.000109174	3	87.6112
0.412705	-0.000112768	3	88.0112
0.3927	-0.000115336	3	88.4112
0.372706	-0.000117954	3	88.8112
0.352695	-0.000120499	3	89.2112
0.332702	-0.000122968	3	89.6112
0.312703	-0.000125157	3	90.0112
0.292709	-0.000126887	3	90.4112
0.272696	-0.000128171	3	90.8112
0.252689	-0.000129216	3	91.2112
0.232697	-0.000129575	3	91.6112
0.212702	-0.000129525	3	92.0112
0.192687	-0.000129386	3	92.4112
0.172706	-0.000129066	3	92.8112
0.152696	-0.000129464	3	93.2114
0.13269	-0.000129846	3	93.6114
0.112691	-0.000130776	3	94.0114
0.0926866	-0.000132176	3	94.4114
0.0726885	-0.000134093	3	94.8114
0.0526842	-0.00013646	3	95.2114
0.0326922	-0.000138789	3	95.6114
0.0126833	-0.000141127	3	96.0114
-0.00732325	-0.000143276	3	96.4114
-0.0273206	-0.00014572	3	96.8114
-0.0473216	-0.000147754	3	97.2114
-0.0673167	-0.00014906	3	97.6114
-0.0873117	-0.000150179	3	98.0114
-0.107333	-0.000151206	3	98.4114
-0.12733	-0.000152683	3	98.8114
-0.147323	-0.000154282	3	99.2114
-0.167314	-0.000156357	3	99.6114
-0.187298	-0.000158835	3	100.011
-0.207327	-0.000161883	3	100.411
-0.227321	-0.000165313	3	100.811
-0.247322	-0.000169459	3	101.211
-0.267335	-0.000174645	3	101.611
-0.28733	-0.000180989	3	102.011
-0.307328	-0.000189867	3	102.411
-0.327331	-0.000201227	3	102.812
-0.34734	-0.000215875	3	103.212
-0.367337	-0.000233509	3	103.612
-0.387347	-0.000254421	3	104.012
-0.407348	-0.000277966	3	104.412
-0.427346	-0.00030326	3	104.812
-0.447324	-0.000329005	3	105.212
-0.467324	-0.000352647	3	105.612
-0.487322	-0.000372588	3	106.012
-0.497185	-0.00014054	3	106.312
-0.477182	-4.65317e-05	3	106.712
-0.455658	-6.21626e-06	3	107.142
-0.435695	2.158e-05	3	107.542
-0.415709	4.46251e-05	3	107.942
-0.395713	6.4424e-05	3	108.342
-0.375711	8.16423e-05	3	108.742
-0.355727	9.63702e-05	3	109.142
-0.335729	0.000108481	3	109.542
-0.314175	0.000118817	3	109.972
-0.29416	0.000127091	3	110.372
-0.274165	0.000133381	3	110.772
-0.254173	0.000138298	3	111.172
-0.234177	0.000141154	3	111.572
-0.214179	0.000143721	3	111.972
-0.194175	0.00014522	3	112.372
-0.17418	0.000146395	3	112.772
-0.154191	0.000147164	3	113.172
-0.134172	0.000147455	3	113.572
-0.11419	0.000147661	3	113.972
-0.0941844	0.000148081	3	114.372
-0.0741951	0.000148161	3	114.772
-0.054196	0.000148175	3	115.172
-0.0341864	0.000148172	3	115.572
-0.0141927	0.000147954	3	115.972
0.00583372	0.000148231	3	116.372
0.0258389	0.000148034	3	116.772
0.0458265	0.000146996	3	117.172
0.065846	0.000144787	3	117.572
0.0858472	0.000141732	3	117.972

File: biologic2.txt
Ewe/V	<I>/mA	cycle number	time/s
0.126137	0.00147758	1	576.767
0.136145	0.00190647	1	576.807
0.153627	0.00211506	1	576.877
0.163627	0.00215212	1	576.917
0.173627	0.00217546	1	576.957
0.183631	0.00219239	1	576.997
0.193622	0.00220791	1	577.037
0.20016	0.00222584	1	577.063
0.196412	-0.00198124	1	577.078
0.186423	-0.00207388	1	577.118
0.176422	-0.00213196	1	577.158
0.16642	-0.00216105	1	577.198
0.156425	-0.00218689	1	577.238
0.146432	-0.00220599	1	577.278
0.136436	-0.00223258	1	577.318
0.126425	-0.00225515	1	577.358
0.116424	-0.00227601	1	577.398
0.106424	-0.00228904	1	577.438
0.0964324	-0.00230865	1	577.478
0.0864281	-0.00232594	1	577.518
0.0764288	-0.00235151	1	577.558
0.0664202	-0.00236673	1	577.598
0.0564148	-0.00238504	1	577.638
0.0464222	-0.00239369	1	577.678
0.0364202	-0.00240986	1	577.718
0.0264226	-0.00243374	1	577.758
0.0164329	-0.00243627	1	577.798
0.00641455	-0.00245662	1	577.838
-0.00359815	-0.00246524	1	577.878
-0.0135905	-0.00247601	1	577.918
-0.0235951	-0.00249	1	577.958
-0.0335995	-0.00249793	1	577.998
-0.0435987	-0.00250974	1	578.038
-0.05359	-0.00252523	1	578.078
-0.0635876	-0.00253066	1	578.118
-0.0735867	-0.00253478	1	578.158
-0.0836006	-0.00254769	1	578.198
-0.0935849	-0.00255186	1	578.238
-0.1036	-0.00256093	1	578.278
-0.113593	-0.00256393	1	578.318
-0.123593	-0.00257317	1	578.358
-0.133589	-0.00257572	1	578.398
-0.143591	-0.00258583	1	578.438
-0.153591	-0.00259943	1	578.478
-0.163587	-0.00260608	1	578.518
-0.173569	-0.0026177	1	578.558
-0.183579	-0.00262861	1	578.598
-0.193585	-0.00264463	1	578.638
-0.199848	-0.00264737	1	578.663
-0.193478	0.00204237	1	578.689
-0.183475	0.00217664	1	578.729
-0.173458	0.00223768	1	578.769
-0.163482	0.00226735	1	578.809
-0.153478	0.00230087	1	578.849
-0.143475	0.00231521	1	578.889
-0.133495	0.00233	1	578.929
-0.123481	0.00233482	1	578.969
-0.113496	0.00234849	1	579.009
-0.103481	0.00235264	1	579.049
-0.0934841	0.00235238	1	579.089
-0.0834845	0.00235655	1	579.129
-0.0734822	0.00236339	1	579.169
-0.0634818	0.00236518	1	579.209
-0.0534812	0.00236633	1	579.249
-0.0434811	0.00236171	1	579.289
-0.033483	0.00236315	1	579.329
-0.0234731	0.0023685	1	579.369
-0.0175717	0.00236705	2	579.392
-0.00757283	0.0023621	2	579.432
0.00242709	0.00236997	2	579.472
0.012428	0.00236673	2	579.512
0.0224353	0.00235943	2	579.552
0.0324302	0.00237301	2	579.592
0.0424254	0.00237181	2	579.632
0.0524245	0.00237164	2	579.672
0.0624288	0.00237112	2	579.712
0.0724259	0.00236785	2	579.752
0.0824284	0.00237559	2	579.792
0.092424	0.00236779	2	579.832
0.102427	0.00237522	2	579.872
0.112423	0.00237469	2	579.912
0.122419	0.00237578	2	579.952
0.132428	0.0023795	2	579.992
0.142417	0.00238102	2	580.032
0.152412	0.00238641	2	580.072
0.162424	0.00238887	2	580.112
0.17241	0.0023894	2	580.152
0.182428	0.00238917	2	580.192
0.192423	0.00239103	2	580.232
0.200134	0.0023808	2	580.263
0.196397	-0.00181292	2	580.279
0.186413	-0.00194837	2	580.319
0.176413	-0.00203226	2	580.359
0.166413	-0.00207028	2	580.399
0.156409	-0.00211172	2	580.439
0.146409	-0.00214385	2	580.479
0.136414	-0.00216812	2	580.519
0.126406	-0.00219256	2	580.559
0.116415	-0.00221446	2	580.599
0.106405	-0.00223232	2	580.639
0.0964119	-0.00224686	2	580.679
0.0864177	-0.00226278	2	580.719
0.0764112	-0.00228541	2	580.759
0.0664147	-0.0023007	2	580.799
0.0564095	-0.00232024	2	580.839
0.0464045	-0.00233062	2	580.879
0.0364019	-0.00234298	2	580.919
0.0264083	-0.00236094	2	580.959
0.0164092	-0.0023685	2	580.999
0.00640172	-0.00238724	2	581.039
-0.00360381	-0.00239883	2	581.079
-0.0136037	-0.00241042	2	581.119
-0.0236053	-0.00241876	2	581.159
-0.0336037	-0.0024357	2	581.199
-0.0436046	-0.00245087	2	581.239
-0.0536115	-0.00246046	2	581.279
-0.0636011	-0.00246107	2	581.319
-0.0735957	-0.00247009	2	581.359
-0.0836002	-0.00247942	2	581.399
-0.0936065	-0.00248603	2	581.439
-0.103608	-0.00249675	2	581.479
-0.113609	-0.00250297	2	581.519
-0.123594	-0.00251118	2	581.559
-0.133596	-0.00252113	2	581.599
-0.143598	-0.00252184	2	581.639
-0.153606	-0.00254645	2	581.679
-0.163607	-0.0025536	2	581.719
-0.173589	-0.00257207	2	581.759
-0.183593	-0.00258786	2	581.799
-0.193594	-0.00260411	2	581.839
-0.199864	-0.0026044	2	581.864
-0.193498	0.00207043	2	581.889
-0.183487	0.00219311	2	581.929
-0.173476	0.00224955	2	581.969
-0.163484	0.00228098	2	582.009
-0.153494	0.00230298	2	582.049
-0.143492	0.00231603	2	582.089
-0.13349	0.00233234	2	582.129
-0.123499	0.0023363	2	582.169
-0.113506	0.00234195	2	582.209
-0.103504	0.00235088	2	582.249
-0.0934947	0.00235519	2	582.289
-0.0834946	0.0023521	2	582.329
-0.0735076	0.00236178	2	582.369
-0.0634866	0.00236314	2	582.409
-0.0534979	0.00236098	2	582.449
-0.0435009	0.00236143	2	582.489
-0.0335072	0.00236098	2	582.529
-0.0235001	0.00236466	2	582.569
-0.0175918	0.00235856	3	582.593
-0.00759627	0.00235917	3	582.633
0.00241169	0.00236401	3	582.673
0.0124039	0.00236359	3	582.713
0.0224171	0.00236036	3	582.753
0.0324084	0.00236219	3	582.793
0.0424093	0.00236336	3	582.833
0.0524083	0.0023682	3	582.873
0.062409	0.00236312	3	582.913
0.0724075	0.00236553	3	582.953
0.0824091	0.0023667	3	582.993
0.0924101	0.00236799	3	583.033
0.102433	0.00237749	3	583.073
0.112422	0.00237241	3	583.113
0.12242	0.00237555	3	583.153
0.132423	0.00237542	3	583.193
0.142422	0.00237614	3	583.233
0.15241	0.00238338	3	583.273
0.162418	0.00238304	3	583.313
0.172412	0.00238275	3	583.353
0.182418	0.00238641	3	583.393
0.192416	0.0023865	3	583.433
0.20013	0.00238394	3	583.464
0.196401	-0.00180993	3	583.479
0.186412	-0.00194454	3	583.519
0.176414	-0.00202753	3	583.559
0.166406	-0.00207224	3	583.599
0.156406	-0.0021074	3	583.639
0.146407	-0.00213222	3	583.679
0.136414	-0.00216075	3	583.719
0.126411	-0.00219154	3	583.759
0.116411	-0.00220207	3	583.799
0.106409	-0.002226	3	583.839
0.0964113	-0.00224174	3	583.879
0.0864061	-0.00225701	3	583.919
0.0764157	-0.00227918	3	583.959
0.0664183	-0.00229365	3	583.999
0.0564119	-0.00231059	3	584.039
0.0464111	-0.00232066	3	584.079
0.036408	-0.00234139	3	584.119
0.0264055	-0.00235706	3	584.159
0.016409	-0.00236648	3	584.199
0.00642266	-0.00238221	3	584.239
-0.00360049	-0.00239598	3	584.279
-0.0136108	-0.00240945	3	584.319
-0.0235941	-0.00241515	3	584.359
-0.0336016	-0.00242727	3	584.399
-0.043611	-0.00243895	3	584.439
-0.0536023	-0.00244802	3	584.479

File: biologic3.txt
Ewe/V	<I>/mA	cycle number	time/s
0.0310427	-0.00619543	1	624.609
0.0169954	-0.00423635	1	624.644
0.000994961	-0.00391941	1	624.684
-0.026994	-0.00378744	1	624.754
-0.0429919	-0.00376756	1	624.794
-0.0589817	-0.00377463	1	624.834
-0.0749827	-0.00378861	1	624.874
-0.09099	-0.00380444	1	624.914
-0.106989	-0.00381966	1	624.954
-0.123001	-0.00382996	1	624.994
-0.138997	-0.00384215	1	625.034
-0.154998	-0.00385624	1	625.074
-0.170984	-0.00387594	1	625.114
-0.186993	-0.00390345	1	625.154
-0.199849	-0.00394264	1	625.186
-0.193778	0.00282639	2	625.202
-0.171754	0.00311901	2	625.257
-0.149772	0.00324954	2	625.312
-0.133772	0.00328833	2	625.352
-0.10579	0.00334985	2	625.422
-0.0897825	0.00336888	2	625.462
-0.0737865	0.00337702	2	625.502
-0.0577961	0.00337837	2	625.542
-0.0417947	0.00337928	2	625.582
-0.0257904	0.00338925	2	625.622
-0.00977255	0.00337223	2	625.662
0.00622648	0.00336959	2	625.702
0.0222238	0.00336786	2	625.742
0.0382358	0.00336709	2	625.782
0.0542336	0.00336779	2	625.822
0.0702313	0.0033567	2	625.862
0.0862302	0.00335718	2	625.902
0.102229	0.00335199	2	625.942
0.118231	0.00334638	2	625.982
0.134225	0.00333397	2	626.022
0.150232	0.00333212	2	626.062
0.166223	0.00332642	2	626.102
0.182235	0.00332541	2	626.142
0.198113	0.00331936	2	626.182
0.198394	-0.000935273	2	626.192
0.170019	-0.00285624	2	626.262
0.154022	-0.0029552	2	626.302
0.126059	-0.0030602	2	626.372
0.110049	-0.00310442	2	626.412
0.09405	-0.00315383	2	626.452
0.0780572	-0.00320355	2	626.492
0.0620482	-0.00324857	2	626.532
0.0460464	-0.00329518	2	626.572
0.0300624	-0.00334263	2	626.612
0.0140351	-0.00338561	2	626.652
-0.0019602	-0.00343001	2	626.692
-0.0179582	-0.00346357	2	626.732
-0.0339776	-0.00349969	2	626.772
-0.0499661	-0.00352932	2	626.812
-0.0659663	-0.00355611	2	626.852
-0.0819703	-0.00358614	2	626.892
-0.0979642	-0.00360516	2	626.932
-0.113971	-0.00362419	2	626.972
-0.129969	-0.00365242	2	627.012
-0.145958	-0.00366959	2	627.052
-0.161972	-0.00369876	2	627.092
-0.177953	-0.00373823	2	627.132
-0.19396	-0.00378702	2	627.172
-0.200055	-0.00378402	3	627.187
-0.185781	0.00305278	3	627.222
-0.163766	0.00321405	3	627.277
-0.141783	0.0032929	3	627.332
-0.125779	0.0033203	3	627.372
-0.0977983	0.00336538	3	627.442
-0.0818048	0.00337452	3	627.482
-0.0657979	0.00337348	3	627.522
-0.0497877	0.00338103	3	627.562
-0.033799	0.00337867	3	627.602
-0.017794	0.00337462	3	627.642
-0.00178611	0.00336792	3	627.682
0.0142109	0.0033625	3	627.722
0.0302227	0.00337127	3	627.762
0.0462308	0.00335621	3	627.802
0.0622239	0.00335164	3	627.842
0.0782278	0.00335855	3	627.882
0.0942196	0.00335088	3	627.922
0.110225	0.00334071	3	627.962
0.126228	0.00333766	3	628.002
0.142221	0.00333471	3	628.042
0.158225	0.00333224	3	628.082
0.174217	0.00333172	3	628.122
0.190221	0.00333017	3	628.162
0.200117	0.00330986	3	628.187
0.190039	-0.00261368	3	628.212
0.162025	-0.00289882	3	628.282
0.146017	-0.00297995	3	628.322
0.118045	-0.00307531	3	628.392
0.102054	-0.00312688	3	628.432
0.0860513	-0.00316918	3	628.472
0.0700503	-0.00321478	3	628.512
0.0540488	-0.00326371	3	628.552
0.0380447	-0.00331163	3	628.592
0.0220537	-0.00335087	3	628.632
0.0060405	-0.00339586	3	628.672
-0.00996333	-0.00343118	3	628.712
-0.0259765	-0.00347154	3	628.752
-0.0419765	-0.00349594	3	628.792
-0.0579684	-0.00352913	3	628.832
-0.0739739	-0.00355733	3	628.872
-0.0899755	-0.00357885	3	628.912
-0.105977	-0.00360039	3	628.952
-0.121966	-0.0036153	3	628.992
-0.137965	-0.0036415	3	629.032
-0.153973	-0.00367189	3	629.072
-0.169961	-0.00369376	3	629.112
-0.185961	-0.00373806	3	629.152
-0.199811	-0.00378191	3	629.187
-0.193774	0.00293294	4	629.203
-0.177781	0.00316362	4	629.243
-0.155782	0.00326142	4	629.298
-0.133782	0.00331271	4	629.353
-0.117777	0.00333584	4	629.393
-0.0897992	0.00337245	4	629.463
-0.0737965	0.0033774	4	629.503
-0.0577943	0.00337601	4	629.543
-0.0418043	0.00337353	4	629.583
-0.0258087	0.00337232	4	629.623
-0.00979455	0.00336861	4	629.663
0.00621213	0.00336489	4	629.703
0.0222161	0.00335702	4	629.743
0.0382216	0.00335655	4	629.783
0.0542197	0.00335437	4	629.823
0.0702293	0.00335428	4	629.863
0.0862302	0.00334894	4	629.903
0.102222	0.00334611	4	629.943
0.118222	0.00334131	4	629.983
0.134238	0.00333506	4	630.023
0.150217	0.00333296	4	630.063
0.166219	0.00333128	4	630.103
0.182216	0.00333193	4	630.143
0.198102	0.00332524	4	630.182
0.198384	-0.000923989	4	630.193
0.182049	-0.00272954	4	630.233
0.154014	-0.00294149	4	630.303
0.138025	-0.00300875	4	630.343
0.116035	-0.00306359	4	630.398
0.0940548	-0.00314105	4	630.453
0.0780495	-0.00318987	4	630.493
0.062037	-0.00323911	4	630.533
0.0460406	-0.00328388	4	630.573
0.0300512	-0.0033297	4	630.613
0.0140373	-0.00336828	4	630.653
-0.00196956	-0.00341395	4	630.693
-0.0179787	-0.0034445	4	630.733
-0.033983	-0.00347761	4	630.773
-0.0499784	-0.00350819	4	630.813
-0.0659768	-0.0035375	4	630.853
-0.0819774	-0.00355911	4	630.893
-0.0979711	-0.00358144	4	630.933
-0.113974	-0.00360244	4	630.973
-0.129969	-0.00362299	4	631.013
-0.145963	-0.00364177	4	631.053
-0.161968	-0.00367178	4	631.093
-0.177959	-0.00371418	4	631.133
-0.193962	-0.00375376	4	631.173
-0.200048	-0.00373901	5	631.188
-0.173763	0.00317879	5	631.253
-0.157774	0.00325758	5	631.293
-0.141776	0.00329978	5	631.333
-0.113801	0.00335077	5	631.403
-0.0977797	0.00336371	5	631.443
-0.0817898	0.00337037	5	631.483
-0.0657836	0.00337349	5	631.523
-0.0497961	0.00337504	5	631.563
-0.0337962	0.00337543	5	631.603
-0.017787	0.00336831	5	631.643
-0.00178479	0.00336931	5	631.683
0.0142226	0.00336089	5	631.723
0.0302415	0.00336364	5	631.763
0.0462332	0.00335326	5	631.803
0.062236	0.00334952	5	631.843
0.0782315	0.00335149	5	631.883
0.0942397	0.00334287	5	631.923
0.110235	0.00334098	5	631.963
0.126236	0.0033318	5	632.003
0.142232	0.00332963	5	632.043
0.158231	0.00333088	5	632.083
0.174225	0.00333291	5	632.123
0.190229	0.00333112	5	632.163
0.200075	0.00331724	5	632.188
0.19004	-0.00260831	5	632.213
0.174048	-0.00280313	5	632.253
0.146021	-0.00297021	5	632.323
0.130026	-0.0030346	5	632.363
0.10804	-0.00308905	5	632.418
0.0860525	-0.00316284	5	632.473
0.0700522	-0.00321033	5	632.513
0.054053	-0.00325923	5	632.553
0.0380426	-0.00330873	5	632.593
0.0220386	-0.00335092	5	632.633
0.00603968	-0.00338946	5	632.673
-0.00995986	-0.0034215	5	632.713
-0.0259704	-0.00345821	5	632.753
-0.0419669	-0.00349418	5	632.793
-0.0579624	-0.00352009	5	632.833
-0.0739767	-0.00354388	5	632.873
-0.0899738	-0.00356642	5	632.913
-0.105973	-0.0035905	5	632.953
-0.121983	-0.0036085	5	632.993
-0.137972	-0.0036283	5	633.033
-0.153967	-0.00365011	5	633.073
-0.169964	-0.00368349	5	633.113
-0.185963	-0.00372155	5	633.153
-0.199857	-0.00377006	5	633.188
-0.193781	0.00294257	5	633.203
-0.165767	0.00322093	5	633.273
-0.149775	0.0032852	5	633.313
-0.133772	0.00332015	5	633.353
-0.105808	0.00336016	5	633.423
-0.0898048	0.00336676	5	633.463
-0.073804	0.00337024	5	633.503
-0.0577855	0.0033799	5	633.543
-0.0417893	0.00337574	5	633.583
-0.0258001	0.00337699	5	633.623
-0.00978807	0.00336229	5	633.663
0.00621798	0.0033618	5	633.703
0.0222135	0.00335639	5	633.743
0.0382263	0.00335157	5	633.783
0.0542331	0.00334994	5	633.823
0.0702306	0.00334838	5	633.863
0.0862308	0.0033455	5	633.903
0.10222	0.00334059	5	633.943
0.118221	0.00333515	5	633.983
0.134226	0.00332923	5	634.023
0.150219	0.00332987	5	634.063
0.166218	0.00332829	5	634.103
0.18222	0.00332794	5	634.143
0.198215	0.00331998	5	634.183
0.214217	0.00331608	5	634.223
0.230208	0.00330859	5	634.263
0.246223	0.00329605	5	634.303
0.252911	0.0032849	5	634.32