Folder: Materials_Data_Analytics/test_trajectories/cyclic_voltammetry (part 2)

File: biologic4.txt
Ewe/V	<I>/mA	time/s	cycle number
-0.109561	0.00033312	0.000000000000000E+000	1
-0.085826	0.00372396	4.7492	1
-0.0618516	0.00362434	9.5482	1
-0.0378235	0.00321585	14.3474	1
-0.0139045	0.00287513	19.1464	1
0.0100842	0.00265387	23.9455	1
0.0341564	0.00253176	28.7446	1
0.0581138	0.00248887	33.5436	1
0.0821131	0.00248158	38.3428	1
0.106104	0.00251263	43.1418	1
0.13014	0.00256525	47.9409	1
0.154138	0.00264565	52.74	1
0.178089	0.00274764	57.539	1
0.202109	0.00286927	62.3382	1
0.226134	0.00303252	67.1372	1
0.250096	0.00323175	71.9362	1
0.274096	0.00350596	76.7354	1
0.298067	0.00384343	81.5344	1
0.322049	0.00429731	86.3336	1
0.335617	0.00403002	90.8732	1
0.311645	0.00272208	95.6722	1
0.287679	0.00191658	100.471	1
0.263691	0.00131307	105.27	1
0.239689	0.000836244	110.069	1
0.215738	0.000462018	114.869	1
0.191746	0.000167348	119.668	1
0.167759	-7.60581e-05	124.467	1
0.143718	-0.000278635	129.266	1
0.119743	-0.000445134	134.065	1
0.0957318	-0.000574661	138.864	1
0.0717551	-0.000679449	143.663	1
0.0477584	-0.000767791	148.462	1
0.0237687	-0.000885003	153.261	1
-0.000220173	-0.00103703	158.06	1
-0.0242329	-0.00128509	162.859	1
-0.0482294	-0.00171336	167.658	1
-0.0722253	-0.00252009	172.458	1
-0.096215	-0.00395694	177.257	1
-0.120163	-0.00611909	182.056	1
-0.144143	-0.00862568	186.855	1
-0.16812	-0.010093	191.654	1
-0.192301	-0.0104392	196.473	1
-0.216308	-0.0108939	201.272	1
-0.240271	-0.0113758	206.071	1
-0.26428	-0.0121447	210.87	1
-0.288286	-0.012972	215.669	1
-0.312271	-0.0139187	220.468	1
-0.336254	-0.0151777	225.267	1
-0.360274	-0.0165589	230.066	1
-0.384264	-0.0181141	234.866	1
-0.408253	-0.0197073	239.665	1
-0.432268	-0.0218679	244.464	1
-0.456267	-0.0238299	249.263	1
-0.480259	-0.0262455	254.062	1
-0.504293	-0.0281281	258.861	1
-0.528264	-0.0293494	263.66	1
-0.552246	-0.0301853	268.459	1
-0.576217	-0.0300873	273.258	1
-0.600219	-0.0300045	278.057	1
-0.624246	-0.0298196	282.856	1
-0.648197	-0.0296365	287.655	1
-0.672223	-0.0295928	292.455	1
-0.696196	-0.0292593	297.254	1
-0.720181	-0.0291595	302.053	1
-0.744189	-0.0288	306.852	1
-0.768199	-0.028903	311.651	1
-0.792192	-0.0296338	316.45	1
-0.816177	-0.030922	321.249	1
-0.840165	-0.0328432	326.048	1
-0.864191	-0.0349969	330.847	1
-0.888205	-0.0369158	335.646	1
-0.912179	-0.0397996	340.445	1
-0.936153	-0.0441953	345.244	1
-0.960125	-0.0500546	350.043	1
-0.9841	-0.0584339	354.843	1
-1.00806	-0.067315	359.642	1
-1.03209	-0.0731282	364.441	1
-1.05606	-0.0704081	369.24	1
-1.08005	-0.0606489	374.039	1
-1.10401	-0.0498917	378.838	1
-1.12806	-0.0412153	383.637	1
-1.15206	-0.0351865	388.436	1
-1.17606	-0.031062	393.235	1
-1.20004	-0.0278367	398.034	1
-1.22407	-0.0253597	402.833	1
-1.24809	-0.0238192	407.632	1
-1.27206	-0.0229129	412.432	1
-1.29608	-0.0223318	417.231	1
-1.32006	-0.0219679	422.03	1
-1.33714	-0.0208682	426.469	1
-1.31319	-0.0180541	431.268	1
-1.28913	-0.0165309	436.068	1
-1.26514	-0.015385	440.867	1
-1.24116	-0.0143863	445.666	1
-1.21718	-0.0134395	450.465	1
-1.19319	-0.0124358	455.264	1
-1.16923	-0.011176	460.063	1
-1.14518	-0.00930488	464.862	1
-1.12123	-0.00618904	469.661	1
-1.0971	-0.000528938	474.48	1
-1.07309	0.0104429	479.289	1
-1.04908	0.0303726	484.098	1
-1.02507	0.0593114	488.897	1
-1.00109	0.0594303	493.696	1
-0.977028	0.0361143	498.496	1
-0.953018	0.0272586	503.295	1
-0.929051	0.0211925	508.094	1
-0.905053	0.017825	512.893	1
-0.881045	0.0160192	517.692	1
-0.857049	0.0157994	522.491	1
-0.833077	0.0159938	527.29	1
-0.809038	0.0167627	532.089	1
-0.785072	0.0173211	536.888	1
-0.761104	0.0181533	541.687	1
-0.737074	0.0191192	546.486	1
-0.713143	0.0197947	551.285	1
-0.689116	0.0210583	556.084	1
-0.665105	0.0232057	560.884	1
-0.641116	0.0251187	565.683	1
-0.617132	0.0257967	570.482	1
-0.593118	0.025591	575.281	1
-0.569133	0.0258905	580.08	1
-0.545162	0.0264879	584.879	1
-0.521164	0.0271298	589.678	1
-0.497162	0.0271129	594.477	1
-0.473162	0.0262264	599.276	1
-0.449135	0.0249827	604.075	1
-0.425185	0.0238057	608.874	1
-0.401178	0.023314	613.673	1
-0.377142	0.0225603	618.473	1
-0.353193	0.0213793	623.272	1
-0.329164	0.0197887	628.071	1
-0.305209	0.0183653	632.87	1
-0.281163	0.0176081	637.669	1
-0.257202	0.0171201	642.468	1
-0.233208	0.0171156	647.267	1
-0.209234	0.0168198	652.066	1
-0.185228	0.0166147	656.865	1
-0.161184	0.0163378	661.664	1
-0.137204	0.0157283	666.463	1
-0.113209	0.0148502	671.262	1
-0.090919	0.0135892	675.722	2
-0.0669306	0.0119565	680.521	2
-0.0429708	0.0104323	685.32	2
-0.0189296	0.00922501	690.119	2
0.00507446	0.00842089	694.918	2
0.0290299	0.00792615	699.717	2
0.0530603	0.00763268	704.516	2
0.0770846	0.00746186	709.315	2
0.101081	0.00731766	714.114	2
0.125063	0.00718255	718.913	2
0.149054	0.00704722	723.712	2
0.173043	0.00690323	728.511	2
0.196994	0.00679373	733.311	2
0.221038	0.00669754	738.11	2
0.245073	0.00666733	742.909	2
0.269059	0.00664335	747.708	2
0.293012	0.00673092	752.507	2
0.317009	0.00685611	757.306	2
0.340231	0.00699089	761.956	2
0.316762	0.0050771	766.665	2
0.29258	0.0039874	771.484	2
0.2686	0.00315589	776.283	2
0.244603	0.00246554	781.082	2
0.220633	0.00190091	785.881	2
0.196624	0.00143373	790.68	2
0.172646	0.00104046	795.479	2
0.14866	0.000709119	800.278	2
0.12467	0.000424987	805.077	2
0.100676	0.000154357	809.876	2
0.0766993	-6.5519e-05	814.675	2
0.0526858	-0.000281848	819.475	2
0.0286991	-0.000490533	824.274	2
0.00468074	-0.000719962	829.073	2
-0.0193123	-0.00104491	833.872	2
-0.0433003	-0.00156263	838.671	2
-0.0672747	-0.00248954	843.47	2
-0.0912653	-0.00408994	848.269	2
-0.115239	-0.00639614	853.068	2
-0.139175	-0.00891018	857.867	2
-0.163191	-0.0102197	862.666	2
-0.187357	-0.0105057	867.485	2
-0.211393	-0.0110326	872.284	2
-0.235371	-0.0116361	877.083	2
-0.259372	-0.0123886	881.883	2
-0.283423	-0.013169	886.682	2
-0.307373	-0.0139383	891.481	2
-0.331352	-0.0150296	896.28	2
-0.355345	-0.016148	901.079	2
-0.379369	-0.0174511	905.878	2
-0.403357	-0.0188758	910.677	2
-0.427338	-0.0204298	915.476	2
-0.451299	-0.0223552	920.275	2
-0.475344	-0.0243257	925.074	2
-0.499296	-0.0261765	929.873	2
-0.523282	-0.0280916	934.672	2
-0.547269	-0.0286238	939.472	2
-0.571272	-0.0289115	944.271	2
-0.595262	-0.0289953	949.07	2
-0.619321	-0.0286167	953.869	2
-0.643292	-0.0283838	958.668	2
-0.667269	-0.0282577	963.467	2
-0.691268	-0.0277182	968.266	2
-0.71529	-0.0275023	973.065	2
-0.73925	-0.0273145	977.864	2
-0.76326	-0.0272498	982.663	2
-0.787239	-0.0276803	987.462	2
-0.811282	-0.0290295	992.261	2
-0.835286	-0.031166	997.06	2
-0.85928	-0.0331313	1001.86	2
-0.883254	-0.034973	1006.66	2
-0.90726	-0.0375555	1011.46	2
-0.931226	-0.0411132	1016.26	2
-0.955184	-0.046519	1021.06	2
-0.979187	-0.0538107	1025.85	2
-1.00318	-0.0624661	1030.65	2
-1.02719	-0.0692453	1035.45	2
-1.05116	-0.0685972	1040.25	2
-1.07514	-0.0605983	1045.05	2
-1.09915	-0.0498743	1049.85	2
-1.12317	-0.0408051	1054.65	2
-1.14715	-0.0342663	1059.45	2
-1.17116	-0.0298276	1064.25	2
-1.19515	-0.0264656	1069.05	2
-1.21916	-0.0238101	1073.85	2
-1.24312	-0.0219856	1078.64	2
-1.26712	-0.0208404	1083.44	2
-1.29112	-0.0200801	1088.24	2
-1.31513	-0.0195815	1093.04	2
-1.33912	-0.0192341	1097.84	2
-1.31713	-0.0159903	1102.46	2
-1.29307	-0.0144179	1107.26	2
-1.26916	-0.0133187	1112.06	2
-1.24517	-0.0123725	1116.86	2
-1.22119	-0.0115041	1121.66	2
-1.19716	-0.0105305	1126.46	2
-1.17319	-0.00930851	1131.26	2
-1.1492	-0.00745428	1136.05	2
-1.12504	-0.00437629	1140.87	2
-1.10113	0.00127203	1145.67	2
-1.07697	0.0121381	1150.49	2
-1.05303	0.0316617	1155.29	2
-1.02904	0.0588782	1160.09	2
-1.00502	0.0572855	1164.89	2
-0.981043	0.0372869	1169.69	2
-0.957042	0.0285507	1174.49	2
-0.933048	0.022565	1179.29	2
-0.909062	0.0189638	1184.09	2
-0.885073	0.0167359	1188.88	2
-0.861066	0.0160988	1193.68	2
-0.837065	0.0160542	1198.48	2
-0.813035	0.0166551	1203.28	2
-0.789022	0.0175129	1208.08	2
-0.765078	0.0180489	1212.88	2
-0.741034	0.0189547	1217.68	2
-0.717088	0.0197993	1222.48	2
-0.693073	0.0208778	1227.28	2
-0.669079	0.0221857	1232.08	2
-0.645109	0.0238994	1236.87	2
-0.621084	0.0250227	1241.67	2
-0.597084	0.0249112	1246.47	2
-0.573091	0.0251709	1251.27	2
-0.5491	0.0258834	1256.07	2
-0.52512	0.0269092	1260.87	2
-0.501133	0.0266866	1265.67	2
-0.47714	0.0257136	1270.47	2
-0.453111	0.0243654	1275.27	2
-0.429125	0.0230434	1280.07	2
-0.405112	0.0225245	1284.87	2
-0.381143	0.0219019	1289.66	2
-0.357142	0.0213836	1294.46	2
-0.333127	0.0202671	1299.26	2
-0.309159	0.0189304	1304.06	2
-0.285164	0.01792	1308.86	2
-0.261162	0.0171435	1313.66	2
-0.237188	0.0168679	1318.46	2
-0.213215	0.0165246	1323.26	2
-0.189164	0.0163834	1328.06	2
-0.165167	0.0160965	1332.86	2
-0.141188	0.0154876	1337.66	2
-0.117177	0.0143965	1342.45	2
-0.0948543	0.0130782	1346.91	3
-0.0708884	0.011449	1351.71	3
-0.0469055	0.00989602	1356.51	3
-0.0229272	0.00864698	1361.31	3
0.00104635	0.00777939	1366.11	3
0.0250029	0.00721614	1370.91	3
0.0490518	0.00689065	1375.71	3
0.0730993	0.00670671	1380.51	3
0.0971036	0.00660393	1385.31	3
0.121065	0.00652448	1390.11	3
0.145017	0.00644577	1394.9	3
0.157994	0.00640649	1397.5	3

File: biologic5.txt
Ewe/V	<I>/mA	time/s	cycle number
-0.0868448	0.00371035	4.5492	1
-0.0149118	0.00288778	18.9464	1
0.0571225	0.00248161	33.3437	1
0.129142	0.00256388	47.741	1
0.201147	0.00286404	62.1382	1
0.273103	0.00348616	76.5354	1
0.33663	0.0041286	90.6732	1
0.264699	0.00132395	105.07	1
0.192745	0.000178608	119.468	1
0.12075	-0.000431802	133.865	1
0.048747	-0.000769475	148.262	1
-0.0232295	-0.00127975	162.659	1
-0.0952192	-0.00387862	177.057	1
-0.167102	-0.0100647	191.454	1
-0.239261	-0.0114465	205.871	1
-0.311265	-0.0139629	220.268	1
-0.383263	-0.0179427	234.666	1
-0.455276	-0.0239794	249.063	1
-0.527242	-0.0293583	263.46	1
-0.599232	-0.0298256	277.857	1
-0.671196	-0.0293069	292.255	1
-0.743211	-0.0287313	306.652	1
-0.81519	-0.0309689	321.049	1
-0.887179	-0.0368928	335.446	1
-0.959128	-0.0497805	349.844	1
-1.03108	-0.0730111	364.241	1
-1.10302	-0.0502777	378.638	1
-1.1751	-0.0311976	393.035	1
-1.24712	-0.0238872	407.432	1
-1.31905	-0.0219724	421.83	1
-1.29012	-0.016581	435.868	1
-1.21818	-0.013492	450.265	1
-1.14619	-0.00940714	464.662	1
-1.0742	0.00970314	479.079	1
-1.0021	0.0605912	493.496	1
-0.930055	0.0215835	507.894	1
-0.858048	0.0159575	522.291	1
-0.786064	0.017542	536.688	1
-0.714115	0.0200219	551.085	1
-0.642135	0.0248426	565.483	1
-0.57013	0.025805	579.88	1
-0.49817	0.0269587	594.277	1
-0.426164	0.0240651	608.674	1
-0.354204	0.0216831	623.072	1
-0.282187	0.017599	637.469	1
-0.210222	0.0169585	651.866	1
-0.138168	0.0158349	666.263	1
-0.067927	0.0120298	680.321	2
0.00410721	0.00843917	694.718	2
0.0760809	0.00745917	709.115	2
0.148063	0.00703996	723.512	2
0.220056	0.00670451	737.91	2
0.29203	0.00673089	752.307	2
0.317751	0.00513334	766.465	2
0.245618	0.00249991	780.882	2
0.173633	0.00106214	795.279	2
0.101652	0.000172421	809.676	2
0.0296845	-0.000473046	824.074	2
-0.0422822	-0.00154133	838.471	2
-0.114246	-0.00630364	852.868	2
-0.186362	-0.0104532	867.285	2
-0.258371	-0.0122709	881.683	2
-0.330357	-0.0150124	896.08	2
-0.402347	-0.0187291	910.477	2
-0.474332	-0.0245538	924.874	2
-0.546276	-0.0288356	939.272	2
-0.618302	-0.0286618	953.669	2
-0.690291	-0.0281318	968.066	2
-0.762277	-0.0272158	982.463	2
-0.834312	-0.0311805	996.861	2
-0.90624	-0.0372009	1011.26	2
-0.978194	-0.0535653	1025.65	2
-1.05016	-0.0688596	1040.05	2
-1.12215	-0.0411212	1054.45	2
-1.19413	-0.0266119	1068.85	2
-1.26611	-0.0208569	1083.24	2
-1.33813	-0.0192577	1097.64	2
-1.27017	-0.0133432	1111.86	2
-1.19816	-0.0105945	1126.26	2
-1.12611	-0.00451422	1140.66	2
-1.05402	0.030604	1155.09	2
-0.982042	0.0379199	1169.49	2
-0.910075	0.019012	1183.89	2
-0.838052	0.0161638	1198.28	2
-0.766064	0.0181344	1212.68	2
-0.694071	0.0207102	1227.08	2
-0.622101	0.0249471	1241.47	2
-0.55008	0.0259061	1255.87	2
-0.478135	0.0255963	1270.27	2
-0.40613	0.0222963	1284.67	2
-0.334123	0.0202885	1299.06	2
-0.262159	0.0171741	1313.46	2
-0.190179	0.0165112	1327.86	2
-0.11819	0.0144251	1342.25	2
-0.0479015	0.00996653	1356.31	3
0.0240186	0.00723259	1370.71	3
0.0961008	0.00660437	1385.11	3
0.168006	0.00637611	1399.5	3
0.24007	0.0062253	1413.9	3
0.31196	0.00648106	1428.3	3
0.297471	0.00403618	1442.5	3
0.225503	0.00204363	1456.89	3
0.153547	0.000794822	1471.29	3
0.0815722	-3.6256e-05	1485.69	3
0.00958104	-0.000713634	1500.08	3
-0.0623846	-0.0023277	1514.48	3
-0.134279	-0.00840385	1528.88	3
-0.206499	-0.010989	1543.3	3
-0.278505	-0.0128854	1557.69	3
-0.350442	-0.0154683	1572.09	3
-0.422414	-0.0198591	1586.49	3
-0.494453	-0.0256603	1600.89	3
-0.566404	-0.0282181	1615.28	3
-0.638368	-0.0276327	1629.68	3
-0.710362	-0.0263818	1644.08	3
-0.782374	-0.0260417	1658.47	3
-0.854387	-0.0310493	1672.87	3
-0.926302	-0.0386284	1687.27	3
-0.998289	-0.0584926	1701.67	3
-1.07027	-0.0604785	1716.06	3
-1.14227	-0.0338337	1730.46	3
-1.21424	-0.0227406	1744.86	3
-1.28624	-0.018588	1759.26	3
-1.32214	-0.0147556	1773.45	3
-1.25013	-0.0111419	1787.85	3
-1.17818	-0.00828839	1802.25	3
-1.10598	0.00161455	1816.68	3
-1.03394	0.0561315	1831.1	3
-0.961917	0.0305091	1845.5	3
-0.889951	0.0173174	1859.9	3
-0.817951	0.0163422	1874.29	3
-0.74593	0.0188656	1888.69	3
-0.673987	0.0220113	1903.09	3
-0.602016	0.0246961	1917.49	3
-0.530044	0.0257187	1931.88	3
-0.458066	0.0236266	1946.28	3
-0.38607	0.0213445	1960.68	3
-0.314102	0.019216	1975.07	3
-0.242101	0.0167888	1989.47	3
-0.170109	0.0158583	2003.87	3
-0.0998889	0.0127125	2017.91	4
-0.027903	0.00821583	2032.3	4
0.0440221	0.00624247	2046.7	4
0.116089	0.00564225	2061.1	4
0.188083	0.00541555	2075.5	4
0.260006	0.00552115	2089.89	4
0.332072	0.00613989	2104.29	4
0.277635	0.00309228	2118.47	4
0.205634	0.00153583	2132.86	4
0.133668	0.000482504	2147.26	4
0.0616822	-0.000290741	2161.66	4
-0.0102936	-0.00107908	2176.06	4
-0.0822748	-0.00351883	2190.45	4
-0.154149	-0.00977221	2204.85	4
-0.226405	-0.0114937	2219.27	4
-0.298409	-0.0136409	2233.67	4
-0.370349	-0.0166096	2248.06	4
-0.442327	-0.0209382	2262.46	4
-0.514328	-0.0261067	2276.86	4
-0.586314	-0.0277879	2291.25	4
-0.658288	-0.0268313	2305.65	4
-0.730269	-0.0252704	2320.05	4
-0.802285	-0.0262196	2334.45	4
-0.874284	-0.0316615	2348.84	4
-0.946254	-0.0412715	2363.24	4
-1.0182	-0.0631401	2377.64	4
-1.09018	-0.0509993	2392.03	4
-1.16218	-0.0290431	2406.43	4
-1.23415	-0.0203488	2420.83	4
-1.30613	-0.0173533	2435.23	4
-1.30215	-0.0126976	2449.44	4
-1.23012	-0.00993768	2463.84	4
-1.15817	-0.00635051	2478.24	4
-1.08586	0.0107965	2492.7	4
-1.01397	0.0591705	2507.09	4
-0.941967	0.0247747	2521.49	4
-0.869936	0.0161277	2535.89	4
-0.797973	0.0162632	2550.28	4
-0.725964	0.0188694	2564.68	4
-0.654022	0.0227655	2579.08	4
-0.582013	0.0237098	2593.48	4
-0.510053	0.0252319	2607.87	4
-0.438049	0.0219885	2622.27	4
-0.366036	0.0208405	2636.67	4
-0.294072	0.0183755	2651.07	4
-0.222128	0.0162745	2665.46	4
-0.150092	0.0148027	2679.86	4
-0.0798994	0.0107573	2693.9	5
-0.00789762	0.00692712	2708.29	5
0.0641235	0.0056018	2722.69	5
0.136104	0.0051837	2737.09	5
0.208125	0.00511938	2751.49	5
0.280113	0.0053915	2765.88	5
0.329757	0.00494575	2780.04	5
0.257652	0.00252961	2794.46	5
0.185654	0.0012041	2808.86	5
0.113624	0.000248711	2823.25	5
0.0416993	-0.000502089	2837.65	5
-0.0303077	-0.00144554	2852.05	5
-0.102258	-0.00505792	2866.44	5
-0.174329	-0.0104724	2880.85	5
-0.246404	-0.0119526	2895.26	5
-0.31838	-0.0144277	2909.66	5
-0.390353	-0.0173836	2924.05	5
-0.46233	-0.0221497	2938.45	5
-0.534329	-0.0267132	2952.85	5
-0.606324	-0.0269874	2967.25	5
-0.678301	-0.0258694	2981.64	5
-0.750297	-0.0245776	2996.04	5
-0.822294	-0.0271195	3010.44	5
-0.894278	-0.0330414	3024.83	5
-0.96622	-0.0455896	3039.23	5
-1.03818	-0.0648914	3053.63	5
-1.1102	-0.0424404	3068.03	5
-1.18217	-0.0257855	3082.42	5
-1.25414	-0.0189812	3096.82	5
-1.32614	-0.0167665	3111.22	5
-1.28216	-0.0116214	3125.44	5
-1.21016	-0.00910364	3139.83	5
-1.138	-0.00388392	3154.27	5
-1.0659	0.0250766	3168.69	5
-0.993916	0.0420891	3183.08	5
-0.92192	0.0208446	3197.48	5
-0.849962	0.0158102	3211.88	5
-0.777934	0.0173144	3226.28	5
-0.705982	0.0195627	3240.67	5
-0.634034	0.0233894	3255.07	5
-0.562028	0.0243447	3269.47	5
-0.49006	0.024475	3283.87	5
-0.418037	0.0213107	3298.26	5
-0.346036	0.02086	3312.66	5
-0.274125	0.0175227	3327.06	5
-0.20211	0.0157437	3341.45	5
-0.130135	0.0134986	3355.85	5